{
  "resourceType": "Bundle",
  "id": "ANC-1-report-personId",
  "meta": {
    "versionId": "1",
    "lastUpdated": "2020-07-09T15:32:26.605+05:30",
    "profile": [
      "https://nrces.in/ndhm/fhir/r4/StructureDefinition/DocumentBundle"
    ],
    "security": [
      {
        "system": "http://terminology.hl7.org/CodeSystem/v3-Confidentiality",
        "code": "V",
        "display": "very restricted"
      }
    ]
  },
  "identifier": {
    "system": "http://chip.khushibaby.org",
    "value": "anc-id"
  },
  "type": "document",
  "timestamp": "2023-04-26T11:39:54.121+05:30",
  "entry": [
    {
      "fullUrl": "Composition/1",
      "resource": {
        "resourceType": "Composition",
        "section": [
          {
            "title": "Observations",
            "code": {
              "coding": [
                {
                  "system": "http://loinc.org",
                  "code": "8310-5",
                  "display": "Body Temperature"
                },
                {
                  "system": "http://loinc.org",
                  "code": "8867-4",
                  "display": "Heart Rate"
                },
                {
                  "system": "http://loinc.org",
                  "code": "8480-6",
                  "display": "Systolic blood pressure"
                },
                {
                  "system": "http://loinc.org",
                  "code": "8462-4",
                  "display": "Diastolic blood pressure"
                },
                {
                  "system": "http://loinc.org",
                  "code": "3141-9",
                  "display": "Body Weight Measured"
                },
                {
                  "system": "http://loinc.org",
                  "code": "718-7",
                  "display": "Haemoglobin"
                },
                {
                  "system": "http://loinc.org",
                  "code": "1556-0",
                  "display": "Fasting glucose [Mass/volume] in Capillary blood"
                },
                {
                  "system": "http://loinc.org",
                  "code": "2339-0",
                  "display": "Glucose [Mass/volume] in Blood"
                },
                {
                  "system": "http://loinc.org",
                  "code": "2339-0",
                  "display": "Glucose [Mass/volume] in Blood"
                },
                {
                  "system": "http://loinc.org",
                  "code": "5804-0",
                  "display": "Protein [Mass/volume] in Urine by Test strip"
                },
                {
                  "system": "http://loinc.org",
                  "code": "15076-3",
                  "display": "Glucose [Moles/volume] in Urine"
                },
                {
                  "system": "http://loinc.org",
                  "code": "20408-1",
                  "display": "Leukocytes [#/volume] in Urine by Test strip"
                },
                {
                  "system": "http://loinc.org",
                  "code": "20407-3",
                  "display": "Nitrite [Mass/volume] in Urine by Test strip"
                }
              ]
            },
            "entry": [
              {
                "reference": "Observation/1"
              },
              {
                "reference": "Observation/2"
              },
              {
                "reference": "Observation/3"
              },
              {
                "reference": "Observation/4"
              },
              {
                "reference": "Observation/5"
              },
              {
                "reference": "Observation/6"
              },
              {
                "reference": "Observation/7"
              },
              {
                "reference": "Observation/7a"
              },
              {
                "reference": "Observation/8"
              },
              {
                "reference": "Observation/9"
              },
              {
                "reference": "Observation/10"
              },
              {
                "reference": "Observation/11"
              },
              {
                "reference": "Observation/12"
              }
            ]
          }
        ],
        "status": "final",
        "date": "2023-04-26T18:00:00.123+05:30",
        "author": [
          {
            "reference": "Practitioner/1",
            "display": "dr.mo or anm"
          }
        ],
        "title": "ANC Report",
        "custodian": {
          "reference": "Organization/1",
          "display": "KhushiBaby"
        },
        "type": {
          "text": "Clinical Consultation report"
        },
        "subject": {
          "reference": "Patient/1",
          "display": "BP"
        }
      }
    },
    {
      "fullUrl": "Practitioner/1",
      "resource": {
        "resourceType": "Practitioner",
        "id": "1",
        "meta": {
          "versionId": "1",
          "lastUpdated": "2023-04-26T11:39:54.121+05:30",
          "profile": [
            "https://nrces.in/ndhm/fhir/r4/StructureDefinition/Practitioner"
          ]
        },
        "identifier": [
          {
            "type": {
              "coding": [
                {
                  "system": "https://terminology.hl7.org/5.1.0/CodeSystem-v2-0203.html",
                  "code": "MD",
                  "display": "Medical License number"
                }
              ]
            },
            "system": "https://doctor.ndhm.gov.in",
            "value": "21-1521-3828-3227"
          }
        ],
        "name": [
          {
            "text": "Leela Kunwar",
            "use": "official",
            "prefix": [
              "Dr."
            ]
          }
        ]
      }
    },
    {
      "fullUrl": "Patient/1",
      "resource": {
        "resourceType": "Patient",
        "id": "1",
        "meta": {
          "versionId": "1",
          "lastUpdated": "2023-04-26T11:39:54.121+05:30",
          "profile": [
            "https://nrces.in/ndhm/fhir/r4/StructureDefinition/Patient"
          ]
        },
        "identifier": [
          {
            "type": {
              "coding": [
                {
                  "system": "http://terminology.hl7.org/CodeSystem/v2-0203",
                  "code": "MR",
                  "display": "Medical record number"
                }
              ]
            },
            "system": "https://healthid.ndhm.gov.in",
            "value": "22-7225-4829-5255"
          }
        ],
        "text": {
          "status": "generated",
          "div": "<div xmlns=\"http://www.w3.org/1999/xhtml\" xml:lang=\"en-IN\" lang=\"en-IN\">ABC, 41 year, Male</div>"
        },
        "gender": "male",
        "birthDate": "2000-03-29",
        "deceasedBoolean": false,
        "telecom": [
          {
            "use": "mobile",
            "system": "phone",
            "value": "9876543210"
          },
          {
            "use": "mobile",
            "system": "email",
            "value": "jagad@khushibaby.org"
          }
        ]
      }
    },
    {
      "fullUrl": "Organization/1",
      "resource": {
        "resourceType": "Organization",
        "id": "1",
        "identifier": [
          {
            "type": {
              "coding": [
                {
                  "system": "http://terminology.hl7.org/CodeSystem/v2-0203",
                  "code": "PRN",
                  "display": "Provider number"
                }
              ]
            }
          }
        ],
        "name": "KhushiBaby",
        "telecom": [
          {
            "system": "phone",
            "value": "+91 243 2634 1234",
            "use": "work"
          },
          {
            "system": "email",
            "value": "contact@labs.xyz.org",
            "use": "work"
          }
        ]
      }
    },
    {
      "fullUrl": "Condition/1",
      "resource": {
        "resourceType": "Condition",
        "id": "1",
        "meta": {
          "profile": [
            "https://nrces.in/ndhm/fhir/r4/StructureDefinition/Condition"
          ]
        },
        "subject": {
          "reference": "Patient/1"
        },
        "clinicalStatus": {
          "coding": [
            {
              "system": "http://terminology.hl7.org/CodeSystem/condition-clinical",
              "code": "active",
              "display": "Active"
            }
          ]
        },
        "code": {
          "coding": [
            {
              "system": "http://snomed.info/sct",
              "code": "72892002",
              "display": "Normal Pregnancy"
            }
          ],
          "text": "Pregnancy"
        }
      }
    },
    {
      "fullUrl": "Observation/1",
      "resource": {
        "resourceType": "Observation",
        "id": "1",
        "meta": {
          "profile": [
            "https://nrces.in/ndhm/fhir/r4/StructureDefinition/ObservationBodyMeasurement"
          ]
        },
        "code": {
          "coding": [
            {
              "system": "http://loinc.org",
              "code": "8310-5",
              "display": "Body Temperature"
            }
          ],
          "text": "pregnancy vital signs"
        },
        "subject": {
          "reference": "Patient/1"
        },
        "status": "final",
        "performer": [
          {
            "reference": "Organization/1"
          }
        ],
        "valueQuantity": {
          "value": 98,
          "unit": "[degF]",
          "system": "http://unitsofmeasure.org",
          "code": "[degF]"
        }
      }
    },
    {
      "fullUrl": "Observation/2",
      "resource": {
        "resourceType": "Observation",
        "id": "2",
        "meta": {
          "profile": [
            "https://nrces.in/ndhm/fhir/r4/StructureDefinition/ObservationBodyMeasurement"
          ]
        },
        "code": {
          "coding": [
            {
              "system": "http://loinc.org",
              "code": "8867-4",
              "display": "Heart Rate"
            }
          ],
          "text": "pregnancy vital signs"
        },
        "subject": {
          "reference": "Patient/1"
        },
        "status": "final",
        "performer": [
          {
            "reference": "Organization/1"
          }
        ],
        "valueQuantity": {
          "value": 60,
          "unit": "/min",
          "system": "http://unitsofmeasure.org",
          "code": "/min"
        }
      }
    },
    {
      "fullUrl": "Observation/3",
      "resource": {
        "resourceType": "Observation",
        "id": "3",
        "meta": {
          "profile": [
            "https://nrces.in/ndhm/fhir/r4/StructureDefinition/ObservationBodyMeasurement"
          ]
        },
        "code": {
          "coding": [
            {
              "system": "http://loinc.org",
              "code": "8480-6",
              "display": "Systolic blood pressure"
            }
          ],
          "text": "pregnancy vital signs"
        },
        "subject": {
          "reference": "Patient/1"
        },
        "status": "final",
        "performer": [
          {
            "reference": "Organization/1"
          }
        ],
        "valueQuantity": {
          "value": 120,
          "unit": "mm[Hg]",
          "system": "http://unitsofmeasure.org",
          "code": "mm[Hg]"
        }
      }
    },
    {
      "fullUrl": "Observation/4",
      "resource": {
        "resourceType": "Observation",
        "id": "1",
        "meta": {
          "profile": [
            "https://nrces.in/ndhm/fhir/r4/StructureDefinition/ObservationBodyMeasurement"
          ]
        },
        "code": {
          "coding": [
            {
              "system": "http://loinc.org",
              "code": "8462-4",
              "display": "Diastolic blood Pressure"
            }
          ],
          "text": "pregnancy vital signs"
        },
        "subject": {
          "reference": "Patient/1"
        },
        "status": "final",
        "performer": [
          {
            "reference": "Organization/1"
          }
        ],
        "valueQuantity": {
          "value": 80,
          "unit": "mm[Hg]",
          "system": "http://unitsofmeasure.org",
          "code": "mm[Hg]"
        }
      }
    },
    {
      "fullUrl": "Observation/5",
      "resource": {
        "resourceType": "Observation",
        "id": "1",
        "meta": {
          "profile": [
            "https://nrces.in/ndhm/fhir/r4/StructureDefinition/ObservationBodyMeasurement"
          ]
        },
        "code": {
          "coding": [
            {
              "system": "http://loinc.org",
              "code": "3141-9",
              "display": "Body weight Measured"
            }
          ],
          "text": "pregnancy vital signs"
        },
        "subject": {
          "reference": "Patient/1"
        },
        "status": "final",
        "performer": [
          {
            "reference": "Organization/1"
          }
        ],
        "valueQuantity": {
          "value": 98,
          "unit": "kg",
          "system": "http://unitsofmeasure.org",
          "code": "kg"
        }
      }
    },
    {
      "fullUrl": "Observation/6",
      "resource": {
        "resourceType": "Observation",
        "id": "6",
        "meta": {
          "profile": [
            "https://nrces.in/ndhm/fhir/r4/StructureDefinition/ObservationBodyMeasurement"
          ]
        },
        "code": {
          "coding": [
            {
              "system": "http://loinc.org",
              "code": "718-7",
              "display": "Haemoglobin"
            }
          ],
          "text": "pregnancy vital signs"
        },
        "subject": {
          "reference": "Patient/1"
        },
        "status": "final",
        "performer": [
          {
            "reference": "Organization/1"
          }
        ],
        "valueQuantity": {
          "value": 98,
          "unit": "g/dL",
          "system": "http://unitsofmeasure.org",
          "code": "g/dL"
        }
      }
    },
    {
      "fullUrl": "Observation/7",
      "resource": {
        "resourceType": "Observation",
        "id": "7",
        "meta": {
          "profile": [
            "https://nrces.in/ndhm/fhir/r4/StructureDefinition/ObservationBodyMeasurement"
          ]
        },
        "code": {
          "coding": [
            {
              "system": "http://loinc.org",
              "code": "1556-0",
              "display": "Fasting glucose [Mass/volume] in Capillary blood"
            }
          ],
          "text": "pregnancy vital signs"
        },
        "subject": {
          "reference": "Patient/1"
        },
        "status": "final",
        "performer": [
          {
            "reference": "Organization/1"
          }
        ],
        "valueQuantity": {
          "value": 90,
          "unit": "mg/dL",
          "system": "http://unitsofmeasure.org",
          "code": "mg/dL"
        }
      }
    },
    {
      "fullUrl": "Observation/7a",
      "resource": {
        "resourceType": "Observation",
        "id": "7a",
        "meta": {
          "profile": [
            "https://nrces.in/ndhm/fhir/r4/StructureDefinition/ObservationBodyMeasurement"
          ]
        },
        "code": {
          "coding": [
            {
              "system": "http://loinc.org",
              "code": "2339-0",
              "display": "Glucose [Mass/volume] in Blood"
            }
          ],
          "text": "pregnancy vital signs"
        },
        "subject": {
          "reference": "Patient/1"
        },
        "status": "final",
        "performer": [
          {
            "reference": "Organization/1"
          }
        ],
        "valueQuantity": {
          "value": 90,
          "unit": "mg/dL",
          "system": "http://unitsofmeasure.org",
          "code": "mg/dL"
        }
      }
    },
    {
      "fullUrl": "Observation/8",
      "resource": {
        "resourceType": "Observation",
        "id": "8",
        "meta": {
          "profile": [
            "https://nrces.in/ndhm/fhir/r4/StructureDefinition/ObservationBodyMeasurement"
          ]
        },
        "code": {
          "coding": [
            {
              "system": "http://loinc.org",
              "code": "2339-0",
              "display": "Glucose [Mass/volume] in Blood"
            }
          ],
          "text": "pregnancy vital signs"
        },
        "subject": {
          "reference": "Patient/1"
        },
        "status": "final",
        "performer": [
          {
            "reference": "Organization/1"
          }
        ],
        "valueQuantity": {
          "value": 15,
          "comparator": ">",
          "unit": "mg/dL",
          "system": "http://unitsofmeasure.org",
          "code": "mg/dL"
        }
      }
    },
    {
      "fullUrl": "Observation/9",
      "resource": {
        "resourceType": "Observation",
        "id": "9",
        "meta": {
          "profile": [
            "https://nrces.in/ndhm/fhir/r4/StructureDefinition/ObservationBodyMeasurement"
          ]
        },
        "code": {
          "coding": [
            {
              "system": "http://loinc.org",
              "code": "5804-0",
              "display": "Protein [Mass/volume] in Urine by Test strip"
            }
          ],
          "text": "pregnancy vital signs"
        },
        "subject": {
          "reference": "Patient/1"
        },
        "status": "final",
        "performer": [
          {
            "reference": "Organization/1"
          }
        ],
        "valueQuantity": {
          "value": 0.3,
          "comparator": ">=",
          "unit": "g/L",
          "system": "http://unitsofmeasure.org",
          "code": "g/L"
        }
      }
    },
    {
      "fullUrl": "Observation/10",
      "resource": {
        "resourceType": "Observation",
        "id": "10",
        "meta": {
          "profile": [
            "https://nrces.in/ndhm/fhir/r4/StructureDefinition/ObservationBodyMeasurement"
          ]
        },
        "code": {
          "coding": [
            {
              "system": "http://loinc.org",
              "code": "15076-3",
              "display": "Glucose [Moles/volume] in Urine"
            }
          ],
          "text": "pregnancy vital signs"
        },
        "subject": {
          "reference": "Patient/1"
        },
        "status": "final",
        "performer": [
          {
            "reference": "Organization/1"
          }
        ],
        "valueQuantity": {
          "value": 5,
          "comparator": ">=",
          "unit": "mmol/L",
          "system": "http://unitsofmeasure.org",
          "code": "mmol/L"
        }
      }
    },
    {
      "fullUrl": "Observation/11",
      "resource": {
        "resourceType": "Observation",
        "id": "11",
        "meta": {
          "profile": [
            "https://nrces.in/ndhm/fhir/r4/StructureDefinition/ObservationBodyMeasurement"
          ]
        },
        "code": {
          "coding": [
            {
              "system": "http://loinc.org",
              "code": "20408-1",
              "display": "Leukocytes [#/volume] in Urine by Test strip"
            }
          ],
          "text": "pregnancy vital signs"
        },
        "subject": {
          "reference": "Patient/1"
        },
        "status": "final",
        "performer": [
          {
            "reference": "Organization/1"
          }
        ],
        "valueQuantity": {
          "value": 15,
          "comparator": ">=",
          "unit": "cells/mL",
          "system": "http://unitsofmeasure.org",
          "code": "cells/mL"
        }
      }
    },
    {
      "fullUrl": "Observation/12",
      "resource": {
        "resourceType": "Observation",
        "id": "12",
        "meta": {
          "profile": [
            "https://nrces.in/ndhm/fhir/r4/StructureDefinition/ObservationBodyMeasurement"
          ]
        },
        "code": {
          "coding": [
            {
              "system": "http://loinc.org",
              "code": "20407-3",
              "display": "Nitrite [Mass/volume] in Urine by Test strip"
            }
          ],
          "text": "pregnancy vital signs"
        },
        "subject": {
          "reference": "Patient/1"
        },
        "status": "final",
        "performer": [
          {
            "reference": "Organization/1"
          }
        ],
        "valueQuantity": {
          "value": 0,
          "comparator": ">",
          "unit": "mg/L",
          "system": "http://unitsofmeasure.org",
          "code": "mg/L"
        }
      }
    }
  ]
}