{
  "resourceType": "Bundle",
  "id": "NCD-personNameOrId",
  "meta": {
    "versionId": "1",
    "lastUpdated": "2023-06-20T11:30:00+05:30",
    "profile": [
      "https://nrces.in/ndhm/fhir/r4/StructureDefinition/DocumentBundle"
    ],
    "security": [
      {
        "system": "http://terminology.hl7.org/CodeSystem/v3-Confidentiality",
        "code": "V",
        "display": "very restricted"
      }
    ]
  },
  "type": "document",
  "timestamp": "2023-06-20T11:30:00+05:30",
  "identifier": {
    "system": "http://chip.khushibaby.org",
    "value": "screening-id"
  },
  "entry": [
    {
      "fullUrl": "Composition/1",
      "resource": {
        "resourceType": "Composition",
        "id": "1",
        "status": "final",
        "author": [
          {
            "reference": "Practitioner/1",
            "display": "anm or asha"
          }
        ],
        "date": "2023-06-13T15:30:00+05:30",
        "custodian": {
          "reference": "Organization/1",
          "display": "KhushiBaby"
        },
        "type": {
          "coding": [
            {
              "system": "http://snomed.info/sct",
              "code": "371530004",
              "display": "Clinical consultation report"
            }
          ],
          "text": "Clinical Consultation report"
        },
        "subject": {
          "reference": "Patient/1",
          "display": "BP"
        },
        "title": "CBAC Screening Report",
        "section": [
          {
            "title": "CBAC screening",
            "code": {
              "coding": [
                {
                  "system": "http://snomed.info/sct",
                  "code": "",
                  "display": "CBAC screening"
                }
              ]
            },
            "entry": [
              {
                "reference": "Condition/2"
              },
              {
                "reference": "Condition/3"
              },
              {
                "reference": "Condition/4"
              },
              {
                "reference": "Condition/5"
              },
              {
                "reference": "Condition/6"
              },
              {
                "reference": "Condition/7"
              },
              {
                "reference": "Condition/8"
              },
              {
                "reference": "Condition/9"
              },
              {
                "reference": "Observation/1"
              },
              {
                "reference": "Observation/2"
              }
            ]
          }
        ],
        "encounter": {
          "reference": "Encounter/1"
        }
      }
    },
    {
      "fullUrl": "Organization/1",
      "resource": {
        "resourceType": "Organization",
        "id": "1",
        "identifier": [
          {
            "type": {
              "coding": [
                {
                  "system": "http://terminology.hl7.org/CodeSystem/v2-0203",
                  "code": "PRN",
                  "display": "Provider number"
                }
              ]
            }
          }
        ],
        "name": "KhushiBaby",
        "telecom": [
          {
            "system": "phone",
            "value": "+91 243 2634 1234",
            "use": "work"
          },
          {
            "system": "email",
            "value": "contact@labs.xyz.org",
            "use": "work"
          }
        ]
      }
    },
    {
      "fullUrl": "Patient/1",
      "resource": {
        "resourceType": "Patient",
        "id": "1",
        "meta": {
          "versionId": "1",
          "lastUpdated": "2023-06-13T16:30:00.121+05:30",
          "profile": [
            "https://nrces.in/ndhm/fhir/r4/StructureDefinition/Patient"
          ]
        },
        "identifier": [
          {
            "type": {
              "coding": [
                {
                  "system": "http://terminology.hl7.org/CodeSystem/v2-0203",
                  "code": "MR",
                  "display": "Medical record number"
                }
              ]
            },
            "system": "https://healthid.ndhm.gov.in",
            "value": "22-7225-4829-5255"
          }
        ],
        "text": {
          "status": "generated",
          "div": "<div xmlns=\"http://www.w3.org/1999/xhtml\" xml:lang=\"en-IN\" lang=\"en-IN\">ABC, 41 year, Male</div>"
        },
        "gender": "male",
        "birthDate": "2000-03-29",
        "deceasedBoolean": false,
        "telecom": [
          {
            "use": "mobile",
            "system": "phone",
            "value": "9876543210"
          },
          {
            "use": "mobile",
            "system": "email",
            "value": "jagad@khushibaby.org"
          }
        ]
      }
    },
    {
      "fullUrl": "Practitioner/1",
      "resource": {
        "resourceType": "Practitioner",
        "id": "1",
        "meta": {
          "versionId": "1",
          "lastUpdated": "2023-06-08T16:00:00.121+05:30",
          "profile": [
            "https://nrces.in/ndhm/fhir/r4/StructureDefinition/Practitioner"
          ]
        },
        "identifier": [
          {
            "type": {
              "coding": [
                {
                  "system": "https://terminology.hl7.org/5.1.0/CodeSystem-v2-0203.html",
                  "code": "MD",
                  "display": "Medical License number"
                }
              ]
            },
            "system": "https://doctor.ndhm.gov.in",
            "value": "21-1521-3828-3227"
          }
        ],
        "name": [
          {
            "text": "Leela Kunwar",
            "use": "official",
            "prefix": [
              "Dr."
            ]
          }
        ]
      }
    },
    {
      "fullUrl": "Encounter/1",
      "resource": {
        "resourceType": "Encounter",
        "id": "1",
        "meta": {
          "profile": [
            "https://nrces.in/ndhm/fhir/r4/StructureDefinition/Encounter"
          ]
        },
        "identifier": [
          {
            "system": "https://khushibaby.org",
            "value": "Malaria"
          }
        ],
        "status": "finished",
        "class": {
          "system": "http://terminology.hl7.org/CodeSystem/v3-ActCode",
          "code": "AMB",
          "display": "ambulatory"
        },
        "subject": {
          "reference": "Patient/1"
        },
        "reasonReference": [
          {
            "reference": "Condition/1"
          }
        ],
        "serviceType": {
          "coding": [
            {
              "system": "http://snomed.info/sct",
              "code": "185389009",
              "display": "Follow-up visit"
            }
          ]
        },
        "period": {
          "start": "2023-06-13T16:30:00.123+05:30"
        }
      }
    },
    {
      "fullUrl": "Condition/1",
      "resource": {
        "resourceType": "Condition",
        "id": "1",
        "meta": {
          "profile": [
            "https://nrces.in/ndhm/fhir/r4/StructureDefinition/Condition"
          ]
        },
        "subject": {
          "reference": "Patient/1"
        },
        "code": {
          "coding": [
            {
              "system": "http://snomed.info/sct",
              "code": "",
              "display": "CBAC screening"
            }
          ]
        }
      }
    },
    {
      "fullUrl": "Condition/2",
      "resource": {
        "resourceType": "Condition",
        "id": "2",
        "meta": {
          "profile": [
            "https://nrces.in/ndhm/fhir/r4/StructureDefinition/Condition"
          ]
        },
        "subject": {
          "reference": "Patient/1"
        },
        "code": {
          "coding": [
            {
              "system": "http://snomed.info/sct",
              "code": "160685001",
              "display": "Bed-ridden"
            }
          ]
        }
      }
    },
    {
      "fullUrl": "Condition/3",
      "resource": {
        "resourceType": "Condition",
        "id": "3",
        "meta": {
          "profile": [
            "https://nrces.in/ndhm/fhir/r4/StructureDefinition/Condition"
          ]
        },
        "subject": {
          "reference": "Patient/1"
        },
        "code": {
          "coding": [
            {
              "system": "http://snomed.info/sct",
              "code": "304560004",
              "display": "Assisting with activity of daily living"
            }
          ]
        }
      }
    },
    {
      "fullUrl": "Condition/4",
      "resource": {
        "resourceType": "Condition",
        "id": "4",
        "meta": {
          "profile": [
            "https://nrces.in/ndhm/fhir/r4/StructureDefinition/Condition"
          ]
        },
        "subject": {
          "reference": "Patient/1"
        },
        "code": {
          "coding": [
            {
              "system": "http://snomed.info/sct",
              "code": "160303001",
              "display": "Family history of diabetes mellitus"
            }
          ]
        }
      }
    },
    {
      "fullUrl": "Condition/5",
      "resource": {
        "resourceType": "Condition",
        "id": "5",
        "meta": {
          "profile": [
            "https://nrces.in/ndhm/fhir/r4/StructureDefinition/Condition"
          ]
        },
        "subject": {
          "reference": "Patient/1"
        },
        "code": {
          "coding": [
            {
              "system": "http://snomed.info/sct",
              "code": "267036007",
              "display": "Dyspnea"
            }
          ]
        }
      }
    },
    {
      "fullUrl": "Condition/6",
      "resource": {
        "resourceType": "Condition",
        "id": "6",
        "meta": {
          "profile": [
            "https://nrces.in/ndhm/fhir/r4/StructureDefinition/Condition"
          ]
        },
        "subject": {
          "reference": "Patient/1"
        },
        "code": {
          "coding": [
            {
              "system": "http://snomed.info/sct",
              "code": "246636008",
              "display": "Hazy vision"
            }
          ]
        }
      }
    },
    {
      "fullUrl": "Condition/7",
      "resource": {
        "resourceType": "Condition",
        "id": "7",
        "meta": {
          "profile": [
            "https://nrces.in/ndhm/fhir/r4/StructureDefinition/Condition"
          ]
        },
        "subject": {
          "reference": "Patient/1"
        },
        "code": {
          "coding": [
            {
              "system": "http://snomed.info/sct",
              "code": "247428002",
              "display": "Thickness of skin"
            }
          ]
        }
      }
    },
    {
      "fullUrl": "Condition/8",
      "resource": {
        "resourceType": "Condition",
        "id": "8",
        "meta": {
          "profile": [
            "https://nrces.in/ndhm/fhir/r4/StructureDefinition/Condition"
          ]
        },
        "subject": {
          "reference": "Patient/1"
        },
        "code": {
          "coding": [
            {
              "system": "http://snomed.info/sct",
              "code": "285466001",
              "display": "Difficulty opening mouth"
            }
          ]
        }
      }
    },
    {
      "fullUrl": "Condition/9",
      "resource": {
        "resourceType": "Condition",
        "id": "9",
        "meta": {
          "profile": [
            "https://nrces.in/ndhm/fhir/r4/StructureDefinition/Condition"
          ]
        },
        "subject": {
          "reference": "Patient/1"
        },
        "code": {
          "coding": [
            {
              "system": "http://snomed.info/sct",
              "code": "249990003",
              "display": "Unsteady when standing"
            }
          ]
        }
      }
    },
    {
      "fullUrl": "Observation/1",
      "resource": {
        "id": "1",
        "meta": {
          "profile": [
            "https://nrces.in/ndhm/fhir/r4/StructureDefinition/Observation"
          ]
        },
        "resourceType": "Observation",
        "status": "final",
        "code": {
          "coding": [
            {
              "system": "http://snomed.info/sct",
              "code": "365980008",
              "display": "Finding of tobacco use and exposure"
            }
          ]
        },
        "valueCodeableConcept": {
          "coding": [
            {
              "system": "http://snomed.info/sct",
              "code": "110483000",
              "display": "Tobacco user"
            }
          ],
          "text": "Tobacco user"
        }
      }
    },
    {
      "fullUrl": "Observation/2",
      "resource": {
        "id": "2",
        "meta": {
          "profile": [
            "https://nrces.in/ndhm/fhir/r4/StructureDefinition/Observation"
          ]
        },
        "resourceType": "Observation",
        "status": "final",
        "code": {
          "coding": [
            {
              "system": "http://snomed.info/sct",
              "code": "228273003",
              "display": "Alcohol drinking behaviour"
            }
          ]
        },
        "valueCodeableConcept": {
          "coding": [
            {
              "system": "http://snomed.info/sct",
              "code": "219006",
              "display": "Current drinker"
            }
          ],
          "text": "Current drinker"
        }
      }
    }
  ]
}