{
  "id": "HBYC-1-kid",
  "meta": {
    "versionId": "1",
    "lastUpdated": "2023-05-15T03:16:34.123+05:30",
    "profile": [
      "https://nrces.in/ndhm/fhir/r4/StructureDefinition/Bundle"
    ],
    "security": [
      {
        "system": "http://terminology.hl7.org/CodeSystem/v3-Confidentiality",
        "code": "V",
        "display": "very restricted"
      }
    ]
  },
  "resourceType": "Bundle",
  "type": "document",
  "timestamp": "2023-05-15T03:16:34.123+05:30",
  "identifier": {
    "system": "http://chip.khushibaby.org",
    "value": "hbyc-id"
  },
  "entry": [
    {
      "fullUrl": "Composition/1",
      "resource": {
        "resourceType": "Composition",
        "section": [
          {
            "title": "Appointment",
            "code": {
              "coding": [
                {
                  "system": "http://snomed.info/sct",
                  "code": "268481000",
                  "display": "Child Health Care"
                }
              ]
            },
            "entry": [
              {
                "reference": "Appointment/1"
              }
            ]
          },
          {
            "title": "Medical Conditions",
            "code": {
              "coding": [
                {
                  "system": "http://snomed.info/sct",
                  "code": "62315008",
                  "display": "Diarrhea"
                }
              ]
            },
            "entry": [
              {
                "reference": "Condition/1"
              }
            ]
          },
          {
            "title": "Medications",
            "code": {
              "coding": [
                {
                  "system": "http://snomed.info/sct",
                  "code": "714564006",
                  "display": "Folic acid-containing product in oral dose form"
                },
                {
                  "system": "http://snomed.info/sct",
                  "code": "353386005",
                  "display": "Zinc Sulphate effervescent tablets"
                }
              ]
            },
            "entry": [
              {
                "reference": "MedicationRequest/1"
              },
              {
                "reference": "MedicationRequest/2"
              }
            ]
          }
        ],
        "encounter": {
          "reference": "Encounter/1"
        },
        "status": "final",
        "date": "2023-05-15T03:16:34.123+05:30",
        "author": [
          {
            "reference": "Practitioner/1",
            "display": "dr.mo or anm"
          }
        ],
        "title": "HBYC Report",
        "custodian": {
          "reference": "Organization/1",
          "display": "KhushiBaby"
        },
        "type": {
          "coding": [
            {
              "system": "http://snomed.info/sct",
              "code": "371530004",
              "display": "Clinical consultation report"
            }
          ],
          "text": "Clinical Consultation report"
        }
      }
    },
    {
      "fullUrl": "Practitioner/1",
      "resource": {
        "resourceType": "Practitioner",
        "id": "1",
        "meta": {
          "versionId": "1",
          "lastUpdated": "2023-04-26T11:39:54.121+05:30",
          "profile": [
            "https://nrces.in/ndhm/fhir/r4/StructureDefinition/Practitioner"
          ]
        },
        "identifier": [
          {
            "type": {
              "coding": [
                {
                  "system": "https://terminology.hl7.org/5.1.0/CodeSystem-v2-0203.html",
                  "code": "MD",
                  "display": "Medical License number"
                }
              ]
            },
            "system": "https://doctor.ndhm.gov.in",
            "value": "21-1521-3828-3227"
          }
        ],
        "name": [
          {
            "text": "Leela Kunwar",
            "use": "official",
            "prefix": [
              "Dr."
            ]
          }
        ]
      }
    },
    {
      "fullUrl": "Patient/1",
      "resource": {
        "resourceType": "Patient",
        "id": "1",
        "meta": {
          "versionId": "1",
          "lastUpdated": "2023-04-26T11:39:54.121+05:30",
          "profile": [
            "https://nrces.in/ndhm/fhir/r4/StructureDefinition/Patient"
          ]
        },
        "identifier": [
          {
            "type": {
              "coding": [
                {
                  "system": "http://terminology.hl7.org/CodeSystem/v2-0203",
                  "code": "MR",
                  "display": "Medical record number"
                }
              ]
            },
            "system": "https://healthid.ndhm.gov.in",
            "value": "22-7225-4829-5255"
          }
        ],
        "text": {
          "status": "generated",
          "div": "<div xmlns=\"http://www.w3.org/1999/xhtml\" xml:lang=\"en-IN\" lang=\"en-IN\">ABC, 41 year, Male</div>"
        },
        "gender": "male",
        "birthDate": "2000-03-29",
        "deceasedBoolean": false,
        "telecom": [
          {
            "use": "mobile",
            "system": "phone",
            "value": "9876543210"
          },
          {
            "use": "mobile",
            "system": "email",
            "value": "jagad@khushibaby.org"
          }
        ]
      }
    },
    {
      "fullUrl": "Organization/1",
      "resource": {
        "resourceType": "Organization",
        "id": "1",
        "identifier": [
          {
            "type": {
              "coding": [
                {
                  "system": "http://terminology.hl7.org/CodeSystem/v2-0203",
                  "code": "PRN",
                  "display": "Provider number"
                }
              ]
            }
          }
        ],
        "name": "KhushiBaby",
        "telecom": [
          {
            "system": "phone",
            "value": "+91 243 2634 1234",
            "use": "work"
          },
          {
            "system": "email",
            "value": "contact@labs.xyz.org",
            "use": "work"
          }
        ]
      }
    },
    {
      "fullUrl": "Appointment/1",
      "resource": {
        "resourceType": "Appointment",
        "id": "1",
        "meta": {
          "profile": [
            "https://nrces.in/ndhm/fhir/r4/StructureDefinition/Appointment"
          ]
        },
        "participant": [
          {
            "actor": {
              "reference": "Patient/1"
            },
            "status": "accepted"
          },
          {
            "actor": {
              "reference": "Practitioner/1"
            },
            "status": "accepted"
          }
        ],
        "status": "checked-in",
        "serviceCategory": [
          {
            "coding": [
              {
                "system": "http://snomed.info/sct",
                "code": "228114008",
                "display": "Reproductive Care"
              }
            ]
          }
        ],
        "serviceType": [
          {
            "coding": [
              {
                "system": "http://snomed.info/sct",
                "code": "268481000",
                "display": "Child health care"
              }
            ]
          }
        ],
        "appointmentType": {
          "coding": [
            {
              "system": "http://snomed.info/sct",
              "code": "308335008",
              "display": "Patient encounter procedure"
            }
          ]
        },
        "description": "ANC 1",
        "start": "2023-04-11T14:23:54.123+05:30",
        "end": "2023-04-11T14:23:54.123+05:30",
        "created": "2023-04-11T14:23:54.123+05:30"
      }
    },
    {
      "fullUrl": "Encounter/1",
      "resource": {
        "resourceType": "Encounter",
        "id": "1",
        "meta": {
          "profile": [
            "https://nrces.in/ndhm/fhir/r4/StructureDefinition/Encounter"
          ]
        },
        "identifier": [
          {
            "system": "khushibaby.org",
            "value": "ANC"
          }
        ],
        "status": "finished",
        "class": {
          "system": "http://terminology.hl7.org/CodeSystem/v3-ActCode",
          "code": "AHOME",
          "display": "home"
        },
        "subject": {
          "reference": "Patient/1"
        },
        "diagnosis": [
          {
            "condition": {
              "reference": "Condition/1"
            },
            "use": {
              "coding": [
                {
                  "system": "http://snomed.info/sct",
                  "code": "424525001",
                  "display": "Antenatal Care"
                }
              ]
            }
          }
        ],
        "reasonReference": [
          {
            "reference": "Condition/1"
          }
        ],
        "period": {
          "start": "2023-04-11T14:23:54.123+05:30"
        }
      }
    },
    {
      "fullUrl": "Condition/1",
      "resource": {
        "id": "1",
        "meta": {
          "profile": [
            "https://nrces.in/ndhm/fhir/r4/StructureDefinition/Condition"
          ]
        },
        "resourceType": "Condition",
        "subject": {
          "reference": "Patient/1"
        },
        "clinicalStatus": {
          "coding": [
            {
              "system": "http://terminology.hl7.org/CodeSystem/condition-clinical",
              "code": "active",
              "display": "Active"
            }
          ]
        },
        "code": {
          "coding": [
            {
              "system": "http://snomed.info/sct",
              "code": "62315008",
              "display": "Diarrhea"
            }
          ]
        }
      }
    },
    {
      "fullUrl": "MedicationRequest/1",
      "resource": {
        "resourceType": "MedicationRequest",
        "id": "1",
        "meta": {
          "profile": [
            "https://nrces.in/ndhm/fhir/r4/StructureDefinition/MedicationRequest"
          ]
        },
        "text": {
          "status": "generated",
          "div": "<div xmlns=\"http://www.w3.org/1999/xhtml\"><p><b>Generated Narrative: MedicationRequest</b><a name=\"1\"> </a></p><div style=\"display: inline-block; background-color: #d9e0e7; padding: 6px; margin: 4px; border: 1px solid #8da1b4; border-radius: 5px; line-height: 60%\"><p style=\"margin-bottom: 0px\">Resource MedicationRequest \"1\" </p><p style=\"margin-bottom: 0px\">Profile: <a href=\"StructureDefinition-MedicationRequest.html\">MedicationRequest</a></p></div><p><b>status</b>: active</p><p><b>intent</b>: order</p><p><b>medication</b>: Neomycin 5 microgram/mg cutaneous ointment <span style=\"background: LightGoldenRodYellow; margin: 4px; border: 1px solid khaki\"> (<a href=\"https://browser.ihtsdotools.org/\">SNOMED CT</a>#353231006)</span></p><p><b>subject</b>: <a href=\"#Patient_1\">See above (Patient/1: ABC)</a></p><p><b>authoredOn</b>: 2020-07-09</p><p><b>requester</b>: <a href=\"#Practitioner_1\">See above (Practitioner/1: Dr. DEF)</a></p><p><b>reasonReference</b>: <a href=\"#Condition_1\">See above (Condition/1)</a></p><h3>DosageInstructions</h3><table class=\"grid\"><tr><td>-</td><td><b>AdditionalInstruction</b></td><td><b>Route</b></td></tr><tr><td>*</td><td>Twice a day <span style=\"background: LightGoldenRodYellow; margin: 4px; border: 1px solid khaki\"> (<a href=\"https://browser.ihtsdotools.org/\">SNOMED CT</a>#229799001)</span></td><td>Topical route <span style=\"background: LightGoldenRodYellow; margin: 4px; border: 1px solid khaki\"> (<a href=\"https://browser.ihtsdotools.org/\">SNOMED CT</a>#6064005)</span></td></tr></table></div>"
        },
        "status": "active",
        "intent": "order",
        "medicationCodeableConcept": {
          "coding": [
            {
              "system": "http://snomed.info/sct",
              "code": "243222002",
              "display": "Oral Rehydration Therapy"
            }
          ]
        },
        "subject": {
          "reference": "Patient/1",
          "display": "ABC"
        },
        "authoredOn": "2020-07-09",
        "requester": {
          "reference": "Practitioner/1",
          "display": "Doc Name"
        },
        "reasonReference": [
          {
            "reference": "Condition/1"
          }
        ],
        "dosageInstruction": [
          {
            "additionalInstruction": [
              {
                "coding": [
                  {
                    "system": "http://snomed.info/sct",
                    "code": "229799001",
                    "display": "Twice a day"
                  }
                ]
              }
            ],
            "route": {
              "coding": [
                {
                  "system": "http://snomed.info/sct",
                  "code": "6064005",
                  "display": "Topical route"
                }
              ]
            }
          }
        ]
      }
    },
    {
      "fullUrl": "MedicationRequest/2",
      "resource": {
        "resourceType": "MedicationRequest",
        "id": "2",
        "meta": {
          "profile": [
            "https://nrces.in/ndhm/fhir/r4/StructureDefinition/MedicationRequest"
          ]
        },
        "text": {
          "status": "generated",
          "div": "<div xmlns=\"http://www.w3.org/1999/xhtml\"><p><b>Generated Narrative: MedicationRequest</b><a name=\"1\"> </a></p><div style=\"display: inline-block; background-color: #d9e0e7; padding: 6px; margin: 4px; border: 1px solid #8da1b4; border-radius: 5px; line-height: 60%\"><p style=\"margin-bottom: 0px\">Resource MedicationRequest \"1\" </p><p style=\"margin-bottom: 0px\">Profile: <a href=\"StructureDefinition-MedicationRequest.html\">MedicationRequest</a></p></div><p><b>status</b>: active</p><p><b>intent</b>: order</p><p><b>medication</b>: Neomycin 5 microgram/mg cutaneous ointment <span style=\"background: LightGoldenRodYellow; margin: 4px; border: 1px solid khaki\"> (<a href=\"https://browser.ihtsdotools.org/\">SNOMED CT</a>#353231006)</span></p><p><b>subject</b>: <a href=\"#Patient_1\">See above (Patient/1: ABC)</a></p><p><b>authoredOn</b>: 2020-07-09</p><p><b>requester</b>: <a href=\"#Practitioner_1\">See above (Practitioner/1: Dr. DEF)</a></p><p><b>reasonReference</b>: <a href=\"#Condition_1\">See above (Condition/1)</a></p><h3>DosageInstructions</h3><table class=\"grid\"><tr><td>-</td><td><b>AdditionalInstruction</b></td><td><b>Route</b></td></tr><tr><td>*</td><td>Twice a day <span style=\"background: LightGoldenRodYellow; margin: 4px; border: 1px solid khaki\"> (<a href=\"https://browser.ihtsdotools.org/\">SNOMED CT</a>#229799001)</span></td><td>Topical route <span style=\"background: LightGoldenRodYellow; margin: 4px; border: 1px solid khaki\"> (<a href=\"https://browser.ihtsdotools.org/\">SNOMED CT</a>#6064005)</span></td></tr></table></div>"
        },
        "status": "active",
        "intent": "order",
        "medicationCodeableConcept": {
          "coding": [
            {
              "system": "http://snomed.info/sct",
              "code": "353386005",
              "display": "Zinc Sulphate effervescent tablets"
            }
          ]
        },
        "subject": {
          "reference": "Patient/1",
          "display": "ABC"
        },
        "authoredOn": "2020-07-09",
        "requester": {
          "reference": "Practitioner/1",
          "display": "Doc Name"
        },
        "reasonReference": [
          {
            "reference": "Condition/1"
          }
        ],
        "dosageInstruction": [
          {
            "additionalInstruction": [
              {
                "coding": [
                  {
                    "system": "http://snomed.info/sct",
                    "code": "229799001",
                    "display": "Twice a day"
                  }
                ]
              }
            ],
            "route": {
              "coding": [
                {
                  "system": "http://snomed.info/sct",
                  "code": "6064005",
                  "display": "Topical route"
                }
              ]
            }
          }
        ]
      }
    },
    {
      "fullUrl": "MedicationRequest/3",
      "resource": {
        "resourceType": "MedicationRequest",
        "id": "2",
        "meta": {
          "profile": [
            "https://nrces.in/ndhm/fhir/r4/StructureDefinition/MedicationRequest"
          ]
        },
        "text": {
          "status": "generated",
          "div": "<div xmlns=\"http://www.w3.org/1999/xhtml\"><p><b>Generated Narrative: MedicationRequest</b><a name=\"1\"> </a></p><div style=\"display: inline-block; background-color: #d9e0e7; padding: 6px; margin: 4px; border: 1px solid #8da1b4; border-radius: 5px; line-height: 60%\"><p style=\"margin-bottom: 0px\">Resource MedicationRequest \"1\" </p><p style=\"margin-bottom: 0px\">Profile: <a href=\"StructureDefinition-MedicationRequest.html\">MedicationRequest</a></p></div><p><b>status</b>: active</p><p><b>intent</b>: order</p><p><b>medication</b>: Neomycin 5 microgram/mg cutaneous ointment <span style=\"background: LightGoldenRodYellow; margin: 4px; border: 1px solid khaki\"> (<a href=\"https://browser.ihtsdotools.org/\">SNOMED CT</a>#353231006)</span></p><p><b>subject</b>: <a href=\"#Patient_1\">See above (Patient/1: ABC)</a></p><p><b>authoredOn</b>: 2020-07-09</p><p><b>requester</b>: <a href=\"#Practitioner_1\">See above (Practitioner/1: Dr. DEF)</a></p><p><b>reasonReference</b>: <a href=\"#Condition_1\">See above (Condition/1)</a></p><h3>DosageInstructions</h3><table class=\"grid\"><tr><td>-</td><td><b>AdditionalInstruction</b></td><td><b>Route</b></td></tr><tr><td>*</td><td>Twice a day <span style=\"background: LightGoldenRodYellow; margin: 4px; border: 1px solid khaki\"> (<a href=\"https://browser.ihtsdotools.org/\">SNOMED CT</a>#229799001)</span></td><td>Topical route <span style=\"background: LightGoldenRodYellow; margin: 4px; border: 1px solid khaki\"> (<a href=\"https://browser.ihtsdotools.org/\">SNOMED CT</a>#6064005)</span></td></tr></table></div>"
        },
        "status": "active",
        "intent": "order",
        "medicationCodeableConcept": {
          "coding": [
            {
              "system": "http://snomed.info/sct",
              "code": "377131004",
              "display": "Albendazole"
            }
          ]
        },
        "subject": {
          "reference": "Patient/1",
          "display": "ABC"
        },
        "authoredOn": "2020-07-09",
        "requester": {
          "reference": "Practitioner/1",
          "display": "Doc Name"
        },
        "reasonReference": [
          {
            "reference": "Condition/1"
          }
        ],
        "dosageInstruction": [
          {
            "additionalInstruction": [
              {
                "coding": [
                  {
                    "system": "http://snomed.info/sct",
                    "code": "229799001",
                    "display": "Twice a day"
                  }
                ]
              }
            ],
            "route": {
              "coding": [
                {
                  "system": "http://snomed.info/sct",
                  "code": "6064005",
                  "display": "Topical route"
                }
              ]
            }
          }
        ]
      }
    }
  ]
}