{
  "resourceType": "Bundle",
  "id": "ANC-1-report-personId",
  "meta": {
    "versionId": "1",
    "lastUpdated": "2020-07-09T15:32:26.605+05:30",
    "profile": [
      "https://nrces.in/ndhm/fhir/r4/StructureDefinition/DocumentBundle"
    ],
    "security": [
      {
        "system": "http://terminology.hl7.org/CodeSystem/v3-Confidentiality",
        "code": "V",
        "display": "very restricted"
      }
    ]
  },
  "identifier": {
    "system": "http://chip.khushibaby.org",
    "value": "anc-id"
  },
  "type": "document",
  "timestamp": "2023-04-26T11:39:54.121+05:30",
  "entry": [
    {
      "fullUrl": "Composition/1",
      "resource": {
        "resourceType": "Composition",
        "section": [
          {
            "title": "Observations",
            "code": {
              "coding": [
                {
                  "system": "http://loinc.org",
                  "code": "3141-9",
                  "display": "Body Weight Measured"
                },
                {
                  "system": "http://loinc.org",
                  "code": "8302-2",
                  "display": "Body Height"
                },
                {
                  "system": "http://loinc.org",
                  "code": "56072-2",
                  "display": "Circumference Mid upper arm - right"
                }
              ]
            },
            "entry": [
              {
                "reference": "Observation/1"
              },
              {
                "reference": "Observation/2"
              },
              {
                "reference": "Observation/3"
              }
            ]
          }
        ],
        "status": "final",
        "date": "2023-04-26T18:00:00.123+05:30",
        "author": [
          {
            "reference": "Practitioner/1",
            "display": "dr.mo or anm"
          }
        ],
        "title": "ANC Report",
        "custodian": {
          "reference": "Organization/1",
          "display": "KhushiBaby"
        },
        "type": {
          "text": "Clinical Consultation report"
        },
        "subject": {
          "reference": "Patient/1",
          "display": "BP"
        }
      }
    },
    {
      "fullUrl": "Practitioner/1",
      "resource": {
        "resourceType": "Practitioner",
        "id": "1",
        "meta": {
          "versionId": "1",
          "lastUpdated": "2023-04-26T11:39:54.121+05:30",
          "profile": [
            "https://nrces.in/ndhm/fhir/r4/StructureDefinition/Practitioner"
          ]
        },
        "identifier": [
          {
            "type": {
              "coding": [
                {
                  "system": "https://terminology.hl7.org/5.1.0/CodeSystem-v2-0203.html",
                  "code": "MD",
                  "display": "Medical License number"
                }
              ]
            },
            "system": "https://doctor.ndhm.gov.in",
            "value": "21-1521-3828-3227"
          }
        ],
        "name": [
          {
            "text": "Leela Kunwar",
            "use": "official",
            "prefix": [
              "Dr."
            ]
          }
        ]
      }
    },
    {
      "fullUrl": "Patient/1",
      "resource": {
        "resourceType": "Patient",
        "id": "1",
        "meta": {
          "versionId": "1",
          "lastUpdated": "2023-04-26T11:39:54.121+05:30",
          "profile": [
            "https://nrces.in/ndhm/fhir/r4/StructureDefinition/Patient"
          ]
        },
        "identifier": [
          {
            "type": {
              "coding": [
                {
                  "system": "http://terminology.hl7.org/CodeSystem/v2-0203",
                  "code": "MR",
                  "display": "Medical record number"
                }
              ]
            },
            "system": "https://healthid.ndhm.gov.in",
            "value": "22-7225-4829-5255"
          }
        ],
        "text": {
          "status": "generated",
          "div": "<div xmlns=\"http://www.w3.org/1999/xhtml\" xml:lang=\"en-IN\" lang=\"en-IN\">ABC, 41 year, Male</div>"
        },
        "gender": "male",
        "birthDate": "2000-03-29",
        "deceasedBoolean": false,
        "telecom": [
          {
            "use": "mobile",
            "system": "phone",
            "value": "9876543210"
          },
          {
            "use": "mobile",
            "system": "email",
            "value": "jagad@khushibaby.org"
          }
        ]
      }
    },
    {
      "fullUrl": "Organization/1",
      "resource": {
        "resourceType": "Organization",
        "id": "1",
        "identifier": [
          {
            "type": {
              "coding": [
                {
                  "system": "http://terminology.hl7.org/CodeSystem/v2-0203",
                  "code": "PRN",
                  "display": "Provider number"
                }
              ]
            }
          }
        ],
        "name": "KhushiBaby",
        "telecom": [
          {
            "system": "phone",
            "value": "+91 243 2634 1234",
            "use": "work"
          },
          {
            "system": "email",
            "value": "contact@labs.xyz.org",
            "use": "work"
          }
        ]
      }
    },
    {
      "fullUrl": "Condition/1",
      "resource": {
        "resourceType": "Condition",
        "id": "1",
        "meta": {
          "profile": [
            "https://nrces.in/ndhm/fhir/r4/StructureDefinition/Condition"
          ]
        },
        "subject": {
          "reference": "Patient/1"
        },
        "clinicalStatus": {
          "coding": [
            {
              "system": "http://terminology.hl7.org/CodeSystem/condition-clinical",
              "code": "active",
              "display": "Active"
            }
          ]
        },
        "code": {
          "coding": [
            {
              "system": "http://snomed.info/sct",
              "code": "72892002",
              "display": "Normal Pregnancy"
            }
          ],
          "text": "Pregnancy"
        }
      }
    },
    {
      "fullUrl": "Observation/1",
      "resource": {
        "resourceType": "Observation",
        "id": "1",
        "meta": {
          "profile": [
            "https://nrces.in/ndhm/fhir/r4/StructureDefinition/ObservationBodyMeasurement"
          ]
        },
        "code": {
          "coding": [
            {
              "system": "http://loinc.org",
              "code": "3141-9",
              "display": "Body Weight Measured"
            }
          ]
        },
        "subject": {
          "reference": "Patient/1"
        },
        "status": "final",
        "performer": [
          {
            "reference": "Organization/1"
          }
        ],
        "valueQuantity": {
          "value": 2.5,
          "unit": "kg",
          "system": "http://unitsofmeasure.org",
          "code": "kg"
        }
      }
    },
    {
      "fullUrl": "Observation/2",
      "resource": {
        "resourceType": "Observation",
        "id": "2",
        "meta": {
          "profile": [
            "https://nrces.in/ndhm/fhir/r4/StructureDefinition/ObservationBodyMeasurement"
          ]
        },
        "code": {
          "coding": [
            {
              "system": "http://loinc.org",
              "code": "8302-2",
              "display": "Body Height"
            }
          ]
        },
        "subject": {
          "reference": "Patient/1"
        },
        "status": "final",
        "performer": [
          {
            "reference": "Organization/1"
          }
        ],
        "valueQuantity": {
          "value": 30,
          "unit": "cm",
          "system": "http://unitsofmeasure.org",
          "code": "cm"
        }
      }
    },
    {
      "fullUrl": "Observation/3",
      "resource": {
        "resourceType": "Observation",
        "id": "3",
        "meta": {
          "profile": [
            "https://nrces.in/ndhm/fhir/r4/StructureDefinition/ObservationBodyMeasurement"
          ]
        },
        "code": {
          "coding": [
            {
              "system": "http://loinc.org",
              "code": "56072-2",
              "display": "Circumference Mid upper arm - right"
            }
          ],
          "text": "pregnancy vital signs"
        },
        "subject": {
          "reference": "Patient/1"
        },
        "status": "final",
        "performer": [
          {
            "reference": "Organization/1"
          }
        ],
        "valueQuantity": {
          "value": 5,
          "unit": "cm",
          "system": "http://unitsofmeasure.org",
          "code": "cm"
        }
      }
    }
  ]
}