{
  "id": "TB-1",
  "meta": {
    "versionId": "1",
    "lastUpdated": "2023-05-15T03:16:34.123+05:30",
    "profile": [
      "https://nrces.in/ndhm/fhir/r4/StructureDefinition/Bundle"
    ],
    "security": [
      {
        "system": "http://terminology.hl7.org/CodeSystem/v3-Confidentiality",
        "code": "V",
        "display": "very restricted"
      }
    ]
  },
  "resourceType": "Bundle",
  "type": "document",
  "timestamp": "2023-05-15T03:16:34.123+05:30",
  "identifier": {
    "system": "http://chip.khushibaby.org",
    "value": "tb-id"
  },
  "entry": [
    {
      "fullUrl": "Composition/1",
      "resource": {
        "resourceType": "Composition",
        "section": [
          {
            "title": "Tb Condition",
            "code": {
              "coding": [
                {
                  lakdsfj
                }
              ]
            },
            "entry": [
              {
                "reference": "Condition/1"
              }
            ]
          },
          {
            "title": "Alcohol/Tobacco Observations",
            "code": {
              "coding": [

              ]
            },
            "entry": [
              {
                "reference": "Observation/1"
              },
              {
                "reference": "Observation/2"
              }
            ]
          }
        ],
        "encounter": {
          "reference": "Encounter/1"
        },
        "status": "final",
        "date": "2023-05-15T03:16:34.123+05:30",
        "author": [
          {
            "reference": "Practitioner/1",
            "display": "dr.mo or anm"
          }
        ],
        "title": "HBYC Report",
        "custodian": {
          "reference": "Organization/1",
          "display": "KhushiBaby"
        },
        "type": {
          "coding": [
            {
              "system": "http://snomed.info/sct",
              "code": "371530004",
              "display": "Clinical consultation report"
            }
          ],
          "text": "Clinical Consultation report"
        }
      }
    },
    {
      "fullUrl": "Practitioner/1",
      "resource": {
        "resourceType": "Practitioner",
        "id": "1",
        "meta": {
          "versionId": "1",
          "lastUpdated": "2023-04-26T11:39:54.121+05:30",
          "profile": [
            "https://nrces.in/ndhm/fhir/r4/StructureDefinition/Practitioner"
          ]
        },
        "identifier": [
          {
            "type": {
              "coding": [
                {
                  "system": "https://terminology.hl7.org/5.1.0/CodeSystem-v2-0203.html",
                  "code": "MD",
                  "display": "Medical License number"
                }
              ]
            },
            "system": "https://doctor.ndhm.gov.in",
            "value": "21-1521-3828-3227"
          }
        ],
        "name": [
          {
            "text": "Leela Kunwar",
            "use": "official",
            "prefix": [
              "Dr."
            ]
          }
        ]
      }
    },
    {
      "fullUrl": "Patient/1",
      "resource": {
        "resourceType": "Patient",
        "id": "1",
        "meta": {
          "versionId": "1",
          "lastUpdated": "2023-04-26T11:39:54.121+05:30",
          "profile": [
            "https://nrces.in/ndhm/fhir/r4/StructureDefinition/Patient"
          ]
        },
        "identifier": [
          {
            "type": {
              "coding": [
                {
                  "system": "http://terminology.hl7.org/CodeSystem/v2-0203",
                  "code": "MR",
                  "display": "Medical record number"
                }
              ]
            },
            "system": "https://healthid.ndhm.gov.in",
            "value": "22-7225-4829-5255"
          }
        ],
        "text": {
          "status": "generated",
          "div": "<div xmlns=\"http://www.w3.org/1999/xhtml\" xml:lang=\"en-IN\" lang=\"en-IN\">ABC, 41 year, Male</div>"
        },
        "gender": "male",
        "birthDate": "2000-03-29",
        "deceasedBoolean": false,
        "telecom": [
          {
            "use": "mobile",
            "system": "phone",
            "value": "9876543210"
          },
          {
            "use": "mobile",
            "system": "email",
            "value": "jagad@khushibaby.org"
          }
        ]
      }
    },
    {
      "fullUrl": "Organization/1",
      "resource": {
        "resourceType": "Organization",
        "id": "1",
        "identifier": [
          {
            "type": {
              "coding": [
                {
                  "system": "http://terminology.hl7.org/CodeSystem/v2-0203",
                  "code": "PRN",
                  "display": "Provider number"
                }
              ]
            }
          }
        ],
        "name": "KhushiBaby",
        "telecom": [
          {
            "system": "phone",
            "value": "+91 243 2634 1234",
            "use": "work"
          },
          {
            "system": "email",
            "value": "contact@labs.xyz.org",
            "use": "work"
          }
        ]
      }
    },
    {
      "fullUrl": "Condition/1",
      "resource": {
        "id": "2",
        "meta": {
          "profile": [
            "https://nrces.in/ndhm/fhir/r4/StructureDefinition/Bundle"
          ]
        },
        "resourceType": "Condition",
        "subject": {
          "reference": "Patient/1"
        },
        "clinicalStatus": {
          "coding": [
            {
              "system": "http://terminology.hl7.org/CodeSystem/condition-clinical",
              "code": "active",
              "display": "Active"
            }
          ]
        },
        "code": {
          "coding": [
            {
              "system": "http://snomed.info/sct",
              "code": "56717001",
              "display": "Tuberculosis"
            }
          ],
          "text": "Tuberculosis"
        }
      }
    },
    {
      "fullUrl": "Condition/2",
      "resource": {
        "id": "2",
        "meta": {
          "profile": [
            "https://nrces.in/ndhm/fhir/r4/StructureDefinition/Bundle"
          ]
        },
        "resourceType": "Condition",
        "subject": {
          "reference": "Patient/1"
        },
        "clinicalStatus": {
          "coding": [
            {
              "system": "http://terminology.hl7.org/CodeSystem/condition-clinical",
              "code": "active",
              "display": "Active"
            }
          ]
        },
        "code": {
          "coding": [
            {
              "system": "http://snomed.info/sct",
              "code": "816160009",
              "display": "Weight Loss"
            }
          ],
          "text": "Weight Loss"
        }
      }
    },
    {
      "fullUrl": "Observation/1",
      "resource": {
        "id": "1",
        "meta": {
          "profile": [
            "https://nrces.in/ndhm/fhir/r4/StructureDefinition/Observation"
          ]
        },
        "resourceType": "Observation",
        "code": {
          "coding": [
            {
              "system": "http://snomed.info/sct",
              "code": "365980008",
              "display": "Finding of tobacco use and exposure"
            }
          ]
        },
        "valueCodeableConcept": {
          "coding": [
            {
              "system": "http://snomed.info/sct",
              "code": "110483000",
              "display": "Tobacco user"
            }
          ],
          "text": "Tobacco user"
        }
      }
    },
    {
      "fullUrl": "Observation/2",
      "resource": {
        "id": "2",
        "meta": {
          "profile": [
            "https://nrces.in/ndhm/fhir/r4/StructureDefinition/Observation"
          ]
        },
        "resourceType": "Observation",
        "code": {
          "coding": [
            {
              "system": "http://snomed.info/sct",
              "code": "228273003",
              "display": "Alcohol drinking behaviour"
            }
          ]
        },
        "valueCodeableConcept": {
          "coding": [
            {
              "system": "http://snomed.info/sct",
              "code": "219006",
              "display": "Current drinker"
            }
          ],
          "text": "Current drinker"
        }
      }
    }
  ]
}