{
  "resourceType": "Bundle",
  "id": "Cataract-personNameOrId",
  "meta": {
    "versionId": "1",
    "lastUpdated": "2023-06-08T11:30:00+05:30",
    "profile": [
      "https://nrces.in/ndhm/fhir/r4/StructureDefinition/DocumentBundle"
    ],
    "security": [
      {
        "system": "http://terminology.hl7.org/CodeSystem/v3-Confidentiality",
        "code": "V",
        "display": "very restricted"
      }
    ]
  },
  "type": "document",
  "timestamp": "2023-06-07T15:30:00+05:30",
  "identifier": {
    "system": "http://chip.khushibaby.org",
    "value": "screening-id"
  },
  "entry": [
    {
      "fullUrl": "Composition/1",
      "resource": {
        "resourceType": "Composition",
        "id": "1",
        "status": "final",
        "author": [
          {
            "reference": "Practitioner/1",
            "display": "anm or asha"
          }
        ],
        "date": "2023-06-08T15:30:00+05:30",
        "custodian": {
          "reference": "Organization/1",
          "display": "KhushiBaby"
        },
        "type": {
          "coding": [
            {
              "system": "http://snomed.info/sct",
              "code": "371530004",
              "display": "Clinical consultation report"
            }
          ],
          "text": "Clinical Consultation report"
        },
        "subject":
          {
          "reference": "Patient/1",
          "display": "BP"
        },
        "title": "Cataract Screening Report",
        "section": [
          {
            "title": "Cataract",
            "code": {
              "coding": [
                {
                  "system": "http://snomed.info/sct",
                  "code": "193570009",
                  "display": "Cataract"
                }
              ]
            },
            "entry": [
              {
                "reference": "Condition/2"
              }
            ]
          },
          {
            "title": "Cataract screening",
            "code": {
              "coding": [
                {
                  "system": "http://snomed.info/sct",
                  "code": "171216005",
                  "display": "Cataract Screening"
                }
              ]
            },
            "entry": [
              {
                "reference": "Observation/1"
              },
              {
                "reference": "Condition/3"
              },
              {
                "reference": "Condition/4"
              }
            ]
          },
          {
            "title": "Cataract surgery",
            "code": {
              "coding": [
                {
                  "system": "http://snomed.info/sct",
                  "code": "110473004",
                  "display": "Cataract surgery"
                }
              ]
            },
            "entry": [
              {
                "reference": "Procedure/1"
              }
            ]
          },
          {
            "title": "Cataract surgery followup",
            "code": {
              "coding": [
                {
                  "system": "http://snomed.info/sct",
                  "code": "439740005",
                  "display": "Postoperative follow-up visit"
                }
              ]
            },
            "entry": [
              {
                "reference": "Appointment/1"
              }
            ]
          }
        ],
        "encounter": {
          "reference": "Encounter/1"
        }
      }
    },
    {
      "fullUrl": "Organization/1",
      "resource": {
        "resourceType": "Organization",
        "id": "1",
        "identifier": [
          {
            "type": {
              "coding": [
                {
                  "system": "http://terminology.hl7.org/CodeSystem/v2-0203",
                  "code": "PRN",
                  "display": "Provider number"
                }
              ]
            }
          }
        ],
        "name": "KhushiBaby",
        "telecom": [
          {
            "system": "phone",
            "value": "+91 243 2634 1234",
            "use": "work"
          },
          {
            "system": "email",
            "value": "contact@labs.xyz.org",
            "use": "work"
          }
        ]
      }
    },
    {
      "fullUrl": "Patient/1",
      "resource": {
        "resourceType": "Patient",
        "id": "1",
        "meta": {
          "versionId": "1",
          "lastUpdated": "2023-06-07T11:39:54.121+05:30",
          "profile": [
            "https://nrces.in/ndhm/fhir/r4/StructureDefinition/Patient"
          ]
        },
        "identifier": [
          {
            "type": {
              "coding": [
                {
                  "system": "http://terminology.hl7.org/CodeSystem/v2-0203",
                  "code": "MR",
                  "display": "Medical record number"
                }
              ]
            },
            "system": "https://healthid.ndhm.gov.in",
            "value": "22-7225-4829-5255"
          }
        ],
        "text": {
          "status": "generated",
          "div": "<div xmlns=\"http://www.w3.org/1999/xhtml\" xml:lang=\"en-IN\" lang=\"en-IN\">ABC, 41 year, Male</div>"
        },
        "gender": "male",
        "birthDate": "2000-03-29",
        "deceasedBoolean": false,
        "telecom": [
          {
            "use": "mobile",
            "system": "phone",
            "value": "9876543210"
          },
          {
            "use": "mobile",
            "system": "email",
            "value": "jagad@khushibaby.org"
          }
        ]
      }
    },
    {
      "fullUrl": "Procedure/1",
      "resource": {
        "resourceType": "Procedure",
        "id": "1",
        "meta": {
          "profile": [
            "https://nrces.in/ndhm/fhir/r4/StructureDefinition/Procedure"
          ]
        },
        "text": {
          "status": "generated",
          "div": "<div xmlns=\"http://www.w3.org/1999/xhtml\">Normal Delivery</div>"
        },
        "subject": {
          "reference": "Patient/1"
        },
        "status": "completed",
        "code": {
          "coding": [
            {
              "system": "http://snomed.info/sct",
              "code": "71388002",
              "display": "Procedure"
            }
          ]
        }
      }
    },
    {
      "fullUrl": "Appointment/1",
      "resource": {
        "resourceType": "Appointment",
        "id": "1",
        "meta": {
          "profile": [
            "https://nrces.in/ndhm/fhir/r4/StructureDefinition/Appointment"
          ]
        },
        "participant": [
          {
            "actor": {
              "reference": "Patient/1"
            },
            "status": "accepted"
          },
          {
            "actor": {
              "reference": "Practitioner/1"
            },
            "status": "accepted"
          }
        ],
        "status": "checked-in",
        "serviceCategory": [
          {
            "coding": [
              {
                "system": "http://snomed.info/sct",
                "code": "225363004",
                "display": "Eye Care"
              }
            ]
          }
        ],
        "serviceType": [
          {
            "coding": [
              {
                "system": "http://snomed.info/sct",
                "code": "193570009",
                "display": "Cataract"
              }
            ]
          }
        ],
        "appointmentType": {
          "coding": [
            {
              "system": "http://snomed.info/sct",
              "code": "308335008",
              "display": "Patient encounter procedure"
            }
          ]
        },
        "description": "Cataract",
        "start": "2023-06-08T16:00:00.123+05:30",
        "end": "2023-06-08T16:00:00.123+05:30",
        "created": "2023-06-08T16:00:00.123+05:30"
      }
    },
    {
      "fullUrl": "Practitioner/1",
      "resource": {
        "resourceType": "Practitioner",
        "id": "1",
        "meta": {
          "versionId": "1",
          "lastUpdated": "2023-06-08T16:00:00.121+05:30",
          "profile": [
            "https://nrces.in/ndhm/fhir/r4/StructureDefinition/Practitioner"
          ]
        },
        "identifier": [
          {
            "type": {
              "coding": [
                {
                  "system": "https://terminology.hl7.org/5.1.0/CodeSystem-v2-0203.html",
                  "code": "MD",
                  "display": "Medical License number"
                }
              ]
            },
            "system": "https://doctor.ndhm.gov.in",
            "value": "21-1521-3828-3227"
          }
        ],
        "name": [
          {
            "text": "Leela Kunwar",
            "use": "official",
            "prefix": [
              "Dr."
            ]
          }
        ]
      }
    },
    {
      "fullUrl": "Encounter/1",
      "resource": {
        "resourceType": "Encounter",
        "id": "1",
        "meta": {
          "profile": [
            "https://nrces.in/ndhm/fhir/r4/StructureDefinition/Encounter"
          ]
        },
        "identifier": [
          {
            "system": "https://khushibaby.org",
            "value": "Cataract"
          }
        ],
        "status": "finished",
        "class": {
              "system": "http://terminology.hl7.org/CodeSystem/v3-ActCode",
              "code": "AMB",
              "display": "ambulatory"
        },
        "subject": {
          "reference": "Patient/1"
        },
        "reasonReference": [
          {
            "reference": "Condition/1"
          }
        ],
        "period": {
          "start": "2023-06-08T16:00:00.123+05:30"
        }
      }
    },
    {
      "fullUrl": "Condition/1",
      "resource": {
        "resourceType": "Condition",
        "id": "1",
        "meta": {
          "profile": [
            "https://nrces.in/ndhm/fhir/r4/StructureDefinition/Condition"
          ]
        },
        "subject": {
          "reference": "Patient/1"
        },
        "code": {
          "coding": [
            {
              "system": "http://snomed.info/sct",
              "code": "171216005",
              "display": "Cataract screening"
            }
          ]
        }
      }
    },
    {
      "fullUrl": "Condition/2",
      "resource": {
        "resourceType": "Condition",
        "id": "2",
        "meta": {
          "profile": [
            "https://nrces.in/ndhm/fhir/r4/StructureDefinition/Condition"
          ]
        },
        "subject": {
          "reference": "Patient/1"
        },
        "code": {
          "coding": [
            {
              "system": "http://snomed.info/sct",
              "code": "193570009",
              "display": "Cataract"
            }
          ]
        }
      }
    },
    {
      "fullUrl": "Condition/4",
      "resource": {
        "resourceType": "Condition",
        "id": "4",
        "meta": {
          "profile": [
            "https://nrces.in/ndhm/fhir/r4/StructureDefinition/Condition"
          ]
        },
        "subject": {
          "reference": "Patient/1"
        },
        "code": {
          "coding": [
            {
              "system": "http://snomed.info/sct",
              "code": "456161000124109",
              "display": "Disorder of right eye"
            }
          ]
        }
      }
    },
    {
      "fullUrl": "Condition/3",
      "resource": {
        "resourceType": "Condition",
        "id": "3",
        "meta": {
          "profile": [
            "https://nrces.in/ndhm/fhir/r4/StructureDefinition/Condition"
          ]
        },
        "subject": {
          "reference": "Patient/1"
        },
        "code": {
          "coding": [
            {
              "system": "http://snomed.info/sct",
              "code": "456171000124102",
              "display": "Disorder of left eye"
            }
          ]
        }
      }
    },
    {
      "fullUrl": "Observation/1",
      "resource": {
        "resourceType": "Observation",
        "id": "1",
        "meta": {
          "profile": [
            "https://nrces.in/ndhm/fhir/r4/StructureDefinition/ObservationBodyMeasurement"
          ]
        },
        "code": {
          "coding": [
            {
              "system": "http://loinc.org",
              "code": "64748-7",
              "display": "Symptoms duration"
            }
          ]
        },
        "subject": {
          "reference": "Patient/1"
        },
        "status": "final",
        "performer": [
          {
            "reference": "Organization/1"
          }
        ],
        "valueQuantity": {
          "value": 1,
          "unit": "year",
          "system": "http://unitsofmeasure.org",
          "code": "a"
        }
      }
    }
  ]
}