{
  "resourceType": "Bundle",
  "id": "Leprosy-personNameOrId",
  "meta": {
    "versionId": "1",
    "lastUpdated": "2023-06-13T11:30:00+05:30",
    "profile": [
      "https://nrces.in/ndhm/fhir/r4/StructureDefinition/DocumentBundle"
    ],
    "security": [
      {
        "system": "http://terminology.hl7.org/CodeSystem/v3-Confidentiality",
        "code": "V",
        "display": "very restricted"
      }
    ]
  },
  "type": "document",
  "timestamp": "2023-06-07T15:30:00+05:30",
  "identifier": {
    "system": "http://chip.khushibaby.org",
    "value": "screening-id"
  },
  "entry": [
    {
      "fullUrl": "Composition/1",
      "resource": {
        "resourceType": "Composition",
        "id": "1",
        "status": "final",
        "author": [
          {
            "reference": "Practitioner/1",
            "display": "anm or asha"
          }
        ],
        "date": "2023-06-13T15:30:00+05:30",
        "custodian": {
          "reference": "Organization/1",
          "display": "KhushiBaby"
        },
        "type": {
          "coding": [
            {
              "system": "http://snomed.info/sct",
              "code": "371530004",
              "display": "Clinical consultation report"
            }
          ],
          "text": "Clinical Consultation report"
        },
        "subject": {
          "reference": "Patient/1",
          "display": "BP"
        },
        "title": "Leprosy Screening Report",
        "section": [
          {
            "title": "Multibacillary leprosy",
            "code": {
              "coding": [
                {
                  "system": "http://snomed.info/sct",
                  "code": "416257001",
                  "display": "Multibacillary leprosy"
                }
              ]
            },
            "entry": [
              {
                "reference": "Condition/2"
              }
            ]
          },
          {
            "title": "Leprosy screening",
            "code": {
              "coding": [
                {
                  "system": "http://snomed.info/sct",
                  "code": "171133009",
                  "display": "Leprosy Screening"
                }
              ]
            },
            "entry": [
              {
                "reference": "Condition/3"
              },
              {
                "reference": "Condition/4"
              }
            ]
          }
        ],
        "encounter": {
          "reference": "Encounter/1"
        }
      }
    },
    {
      "fullUrl": "Organization/1",
      "resource": {
        "resourceType": "Organization",
        "id": "1",
        "identifier": [
          {
            "type": {
              "coding": [
                {
                  "system": "http://terminology.hl7.org/CodeSystem/v2-0203",
                  "code": "PRN",
                  "display": "Provider number"
                }
              ]
            }
          }
        ],
        "name": "KhushiBaby",
        "telecom": [
          {
            "system": "phone",
            "value": "+91 243 2634 1234",
            "use": "work"
          },
          {
            "system": "email",
            "value": "contact@labs.xyz.org",
            "use": "work"
          }
        ]
      }
    },
    {
      "fullUrl": "Patient/1",
      "resource": {
        "resourceType": "Patient",
        "id": "1",
        "meta": {
          "versionId": "1",
          "lastUpdated": "2023-06-13T16:30:00.121+05:30",
          "profile": [
            "https://nrces.in/ndhm/fhir/r4/StructureDefinition/Patient"
          ]
        },
        "identifier": [
          {
            "type": {
              "coding": [
                {
                  "system": "http://terminology.hl7.org/CodeSystem/v2-0203",
                  "code": "MR",
                  "display": "Medical record number"
                }
              ]
            },
            "system": "https://healthid.ndhm.gov.in",
            "value": "22-7225-4829-5255"
          }
        ],
        "text": {
          "status": "generated",
          "div": "<div xmlns=\"http://www.w3.org/1999/xhtml\" xml:lang=\"en-IN\" lang=\"en-IN\">ABC, 41 year, Male</div>"
        },
        "gender": "male",
        "birthDate": "2000-03-29",
        "deceasedBoolean": false,
        "telecom": [
          {
            "use": "mobile",
            "system": "phone",
            "value": "9876543210"
          },
          {
            "use": "mobile",
            "system": "email",
            "value": "jagad@khushibaby.org"
          }
        ]
      }
    },
    {
      "fullUrl": "Practitioner/1",
      "resource": {
        "resourceType": "Practitioner",
        "id": "1",
        "meta": {
          "versionId": "1",
          "lastUpdated": "2023-06-08T16:00:00.121+05:30",
          "profile": [
            "https://nrces.in/ndhm/fhir/r4/StructureDefinition/Practitioner"
          ]
        },
        "identifier": [
          {
            "type": {
              "coding": [
                {
                  "system": "https://terminology.hl7.org/5.1.0/CodeSystem-v2-0203.html",
                  "code": "MD",
                  "display": "Medical License number"
                }
              ]
            },
            "system": "https://doctor.ndhm.gov.in",
            "value": "21-1521-3828-3227"
          }
        ],
        "name": [
          {
            "text": "Leela Kunwar",
            "use": "official",
            "prefix": [
              "Dr."
            ]
          }
        ]
      }
    },
    {
      "fullUrl": "Encounter/1",
      "resource": {
        "resourceType": "Encounter",
        "id": "1",
        "meta": {
          "profile": [
            "https://nrces.in/ndhm/fhir/r4/StructureDefinition/Encounter"
          ]
        },
        "identifier": [
          {
            "system": "https://khushibaby.org",
            "value": "Leprosy"
          }
        ],
        "status": "finished",
        "class": {
          "system": "http://terminology.hl7.org/CodeSystem/v3-ActCode",
          "code": "AMB",
          "display": "ambulatory"
        },
        "subject": {
          "reference": "Patient/1"
        },
        "reasonReference": [
          {
            "reference": "Condition/1"
          }
        ],
        "serviceType": {
          "coding": [
            {
              "system": "http://snomed.info/sct",
              "code": "185389009",
              "display": "Follow-up visit"
            }
          ]
        },
        "period": {
          "start": "2023-06-13T16:30:00.123+05:30"
        }
      }
    },
    {
      "fullUrl": "Condition/1",
      "resource": {
        "resourceType": "Condition",
        "id": "1",
        "meta": {
          "profile": [
            "https://nrces.in/ndhm/fhir/r4/StructureDefinition/Condition"
          ]
        },
        "subject": {
          "reference": "Patient/1"
        },
        "code": {
          "coding": [
            {
              "system": "http://snomed.info/sct",
              "code": "171133009",
              "display": "Leprosy screening"
            }
          ]
        }
      }
    },
    {
      "fullUrl": "Condition/2",
      "resource": {
        "resourceType": "Condition",
        "id": "2",
        "meta": {
          "profile": [
            "https://nrces.in/ndhm/fhir/r4/StructureDefinition/Condition"
          ]
        },
        "subject": {
          "reference": "Patient/1"
        },
        "code": {
          "coding": [
            {
              "system": "http://snomed.info/sct",
              "code": "416257001",
              "display": "Multibacillary leprosy"
            }
          ]
        }
      }
    },
    {
      "fullUrl": "Condition/3",
      "resource": {
        "resourceType": "Condition",
        "id": "3",
        "meta": {
          "profile": [
            "https://nrces.in/ndhm/fhir/r4/StructureDefinition/Condition"
          ]
        },
        "subject": {
          "reference": "Patient/1"
        },
        "code": {
          "coding": [
            {
              "system": "http://snomed.info/sct",
              "code": "445144002",
              "display": "Deformity of limb"
            }
          ]
        }
      }
    },
    {
      "fullUrl": "Condition/4",
      "resource": {
        "resourceType": "Condition",
        "id": "4",
        "meta": {
          "profile": [
            "https://nrces.in/ndhm/fhir/r4/StructureDefinition/Condition"
          ]
        },
        "subject": {
          "reference": "Patient/1"
        },
        "code": {
          "coding": [
            {
              "system": "http://snomed.info/sct",
              "code": "44077006",
              "display": "Loss of sensation"
            }
          ]
        }
      }
    },
    {
      "fullUrl": "MedicationRequest/1",
      "resource": {
        "resourceType": "MedicationRequest",
        "id": "1",
        "meta": {
          "profile": [
            "https://nrces.in/ndhm/fhir/r4/StructureDefinition/MedicationRequest"
          ]
        },
        "text": {
          "status": "generated",
          "div": "<div xmlns=\"http://www.w3.org/1999/xhtml\"><p><b>Generated Narrative: MedicationRequest</b><a name=\"1\"> </a></p><div style=\"display: inline-block; background-color: #d9e0e7; padding: 6px; margin: 4px; border: 1px solid #8da1b4; border-radius: 5px; line-height: 60%\"><p style=\"margin-bottom: 0px\">Resource MedicationRequest \"1\" </p><p style=\"margin-bottom: 0px\">Profile: <a href=\"StructureDefinition-MedicationRequest.html\">MedicationRequest</a></p></div><p><b>status</b>: active</p><p><b>intent</b>: order</p><p><b>medication</b>: Neomycin 5 microgram/mg cutaneous ointment <span style=\"background: LightGoldenRodYellow; margin: 4px; border: 1px solid khaki\"> (<a href=\"https://browser.ihtsdotools.org/\">SNOMED CT</a>#353231006)</span></p><p><b>subject</b>: <a href=\"#Patient_1\">See above (Patient/1: ABC)</a></p><p><b>authoredOn</b>: 2020-07-09</p><p><b>requester</b>: <a href=\"#Practitioner_1\">See above (Practitioner/1: Dr. DEF)</a></p><p><b>reasonReference</b>: <a href=\"#Condition_1\">See above (Condition/1)</a></p><h3>DosageInstructions</h3><table class=\"grid\"><tr><td>-</td><td><b>AdditionalInstruction</b></td><td><b>Route</b></td></tr><tr><td>*</td><td>Twice a day <span style=\"background: LightGoldenRodYellow; margin: 4px; border: 1px solid khaki\"> (<a href=\"https://browser.ihtsdotools.org/\">SNOMED CT</a>#229799001)</span></td><td>Topical route <span style=\"background: LightGoldenRodYellow; margin: 4px; border: 1px solid khaki\"> (<a href=\"https://browser.ihtsdotools.org/\">SNOMED CT</a>#6064005)</span></td></tr></table></div>"
        },
        "status": "active",
        "intent": "order",
        "medicationCodeableConcept": {
          "coding": [
            {
              "system": "http://snomed.info/sct",
              "code": "768040009",
              // discuss
              "display": "Rifampicin"
            }
          ]
        },
        "subject": {
          "reference": "Patient/1",
          "display": "ABC"
        },
        "authoredOn": "2020-07-09",
        "requester": {
          "reference": "Practitioner/1",
          "display": "Doc Name"
        },
        "encounter": {
          "reference": "Encounter/1"
        },
        "reasonReference": [
          {
            "reference": "Condition/1"
          }
        ],
        "dosageInstruction": [
          {
            "additionalInstruction": [
              {
                "coding": [
                  {
                    "system": "http://snomed.info/sct",
                    "code": "307450003",
                    // discuss
                    "display": "Once monthly"
                  }
                ]
              }
            ],
            "route": {
              "coding": [
                {
                  "system": "http://snomed.info/sct",
                  "code": "6064005",
                  "display": "Topical route"
                }
              ]
            }
          }
        ]
      }
    }
  ]
}